aX,aY,aZ,gX,gY,gZ
0.118,-0.026,0.97,-4.089,2.197,-1.099
0.127,-0.044,0.969,-5.92,1.282,-2.075
0.146,-0.051,0.953,-6.47,-0.488,-2.441
0.167,-0.056,0.939,-6.531,-1.038,-2.38
0.181,-0.08,0.929,-6.47,-0.916,-1.404
0.193,-0.023,0.926,-5.066,-0.916,1.648
0.203,-0.031,0.926,-3.54,2.075,1.648
0.207,-0.033,0.915,-2.563,4.639,2.197
0.19,-0.024,0.899,0.305,5.249,5.737
0.173,-0.018,0.896,3.418,6.653,7.507
0.161,-0.002,0.905,5.554,8.057,7.629
0.155,0.008,0.91,7.751,7.446,7.446
0.157,0.018,0.92,8.667,5.432,7.629
0.16,0.02,0.93,8.789,3.296,7.446
0.161,0.017,0.937,8.972,1.465,6.714
0.159,0.008,0.953,8.179,0.916,5.554
0.158,-0.005,0.963,7.08,0.305,5.127
0.16,-0.024,0.964,7.507,-0.366,5.188
0.17,-0.042,0.969,7.874,-0.305,5.127
0.177,-0.062,0.975,8.972,0.671,6.287
0.176,-0.081,0.977,11.353,3.174,8.667
0.168,-0.089,0.983,15.198,7.019,10.742
0.154,-0.094,0.993,19.226,11.475,11.963
0.135,-0.088,1.008,22.156,14.709,13.306
0.115,-0.071,1.023,23.804,16.541,14.099
0.105,-0.075,1.028,23.987,16.907,13.794
0.054,0.111,0.993,23.376,-14.954,25.391
0.089,0.117,1.001,8.85,-36.987,20.569
0.113,0.101,0.99,-1.526,-55.664,17.639
0.106,0.058,0.988,-7.568,-65.308,16.907
0.066,0.009,1.001,-7.69,-65.063,20.386
0.01,-0.021,1.021,-3.174,-56.213,25.94
-0.052,-0.048,1.055,4.578,-41.809,32.471
-0.12,-0.089,1.103,12.39,-26.855,38.391
-0.16,-0.114,1.154,17.334,-14.404,42.542
-0.173,-0.112,1.168,20.203,-7.568,43.091
-0.167,-0.088,1.174,20.203,-5.249,40.1
-0.148,-0.057,1.173,15.32,-5.249,35.156
-0.126,-0.042,1.164,7.629,-7.08,28.809
-0.109,-0.038,1.153,-1.648,-10.132,21.057
-0.102,-0.068,1.146,-10.498,-13.367,14.526
-0.085,-0.089,1.128,-18.005,-15.747,10.742
-0.069,-0.099,1.099,-22.095,-16.357,9.216
-0.083,-0.123,1.081,-22.339,-13.184,9.46
-0.095,-0.142,1.079,-20.081,-6.165,10.498
-0.104,-0.155,1.081,-16.418,0.732,11.536
-0.121,-0.167,1.09,-13.611,6.592,12.207
-0.13,-0.17,1.099,-11.902,11.841,10.498
-0.122,-0.168,1.107,-10.498,15.93,7.202
-0.106,-0.144,1.117,-10.437,18.188,4.15
-0.094,-0.117,1.121,-10.62,19.043,2.93
-0.099,-0.078,1.114,-11.292,19.409,3.296
-0.076,-0.188,0.916,6.165,6.104,11.597
-0.094,-0.203,0.941,5.005,2.319,12.39
-0.097,-0.211,0.965,2.93,-0.977,12.512
-0.075,-0.201,0.962,1.404,-3.296,12.268
-0.06,-0.186,0.946,0.244,-4.639,11.902
-0.042,-0.178,0.925,-0.916,-3.418,11.902
-0.026,-0.172,0.912,-2.258,-1.77,11.108
-0.012,-0.161,0.908,-3.784,-1.77,10.559
-0.016,-0.165,0.919,-5.188,-3.418,10.62
-0.041,-0.184,0.952,-7.324,-6.653,11.841
-0.072,-0.202,0.972,-9.033,-8.972,12.024
-0.09,-0.213,0.985,-9.216,-9.338,11.414
-0.102,-0.218,0.998,-9.094,-8.484,10.925
-0.111,-0.232,1.003,-8.179,-5.737,11.536
-0.1,-0.237,0.998,-6.836,-2.38,12.695
-0.074,-0.23,0.976,-5.31,0.427,13.489
-0.052,-0.211,0.947,-3.906,3.113,13.123
-0.032,-0.183,0.927,-2.38,4.761,12.634
-0.021,-0.164,0.916,-2.258,5.188,12.39
-0.018,-0.153,0.92,-3.784,3.357,12.756
-0.028,-0.151,0.923,-7.019,0.427,13.489
-0.056,-0.157,0.932,-10.742,-1.77,14.221
-0.08,-0.167,0.946,-14.771,-1.892,14.282
-0.105,-0.191,0.96,-17.761,0.122,14.038
-0.108,-0.192,0.949,-18.555,3.418,13.916
-0.088,-0.178,0.922,-15.686,7.507,13.489
-0.158,-0.228,1.014,-4.517,0.854,12.329
-0.156,-0.233,1.005,-5.432,-7.202,13.245
-0.129,-0.25,0.99,-6.104,-9.827,14.343
-0.097,-0.268,0.96,-5.615,-5.981,14.832
-0.039,-0.253,0.919,-3.967,1.587,14.771
0.026,-0.216,0.868,-0.977,9.827,13.916
0.053,-0.191,0.839,0.427,13,12.512
0.039,-0.191,0.861,-0.305,9.155,13.062
-0.003,-0.213,0.898,-1.77,0.305,14.771
-0.055,-0.233,0.958,-3.357,-8.972,15.503
-0.106,-0.242,0.998,-4.639,-16.602,15.686
-0.146,-0.244,1.033,-4.7,-20.02,15.381
-0.168,-0.255,1.073,-4.517,-17.334,15.381
-0.171,-0.256,1.091,-3.296,-9.094,15.015
-0.143,-0.23,1.071,-0.671,2.869,14.465
-0.09,-0.211,1.021,2.625,16.968,14.099
-0.01,-0.159,0.944,4.211,26.917,13.611
0.051,-0.129,0.877,3.784,27.588,12.39
0.043,-0.145,0.869,-0.854,18.616,12.573
0.006,-0.175,0.882,-6.592,4.333,15.137
-0.042,-0.19,0.905,-9.644,-9.949,16.357
-0.09,-0.183,0.944,-10.62,-20.752,14.587
-0.151,-0.187,0.998,-10.132,-26.001,12.329
-0.195,-0.216,1.045,-9.155,-23.193,11.292
-0.193,-0.212,1.052,-7.141,-15.076,11.597
-0.151,-0.188,1.021,-4.211,-5.92,11.475
-0.008,-0.231,0.897,-0.671,-9.46,-4.272
0.014,-0.218,0.877,1.526,-7.568,-2.93
0.025,-0.194,0.874,3.784,-9.827,-0.916
0.011,-0.167,0.905,5.31,-12.573,2.075
-0.012,-0.166,0.948,5.493,-12.695,4.211
-0.044,-0.181,0.981,4.272,-9.705,3.54
-0.075,-0.192,1.005,2.075,-4.883,2.441
-0.094,-0.205,1.025,-0.122,0.977,1.587
-0.102,-0.22,1.035,-3.54,8.423,0.488
-0.099,-0.215,1.02,-6.653,16.479,-0.488
-0.066,-0.206,0.995,-7.019,23.621,-1.16
-0.036,-0.189,0.963,-6.165,28.931,-1.892
-0.001,-0.177,0.937,-5.31,31.677,-2.686
0.022,-0.187,0.932,-5.249,31.433,-3.296
0.032,-0.203,0.922,-5.493,28.381,-4.089
0.021,-0.216,0.92,-5.005,23.254,-4.211
-0.007,-0.229,0.938,-4.944,17.334,-3.967
-0.046,-0.234,0.956,-5.31,11.169,-4.456
-0.079,-0.242,0.978,-5.493,6.348,-4.883
-0.093,-0.226,0.985,-3.54,2.747,-4.7
-0.098,-0.209,0.986,0.671,1.16,-5.554
-0.082,-0.178,0.982,5.31,1.831,-7.08
-0.062,-0.152,0.993,9.277,2.93,-8.179
-0.032,-0.115,1,11.047,3.235,-8.606
-0.028,-0.104,1.007,9.338,1.465,-8.484
-0.014,-0.12,1.023,6.042,-0.244,-6.104
-0.104,-0.2,1.013,-11.475,0.244,12.024
-0.092,-0.203,1.022,-8.484,7.751,12.207
-0.057,-0.191,1.016,-5.066,16.846,13.794
-0.006,-0.178,0.993,-0.916,23.254,15.32
0.031,-0.176,0.969,1.831,24.475,16.296
0.041,-0.179,0.966,2.197,20.752,18.311
0.05,-0.19,0.966,2.197,14.893,20.386
0.033,-0.191,0.978,1.038,7.996,20.874
0.003,-0.183,1,-1.16,2.808,20.63
-0.038,-0.181,1.015,-1.77,0.61,21.423
-0.075,-0.164,1.032,-0.854,2.014,23.315
-0.108,-0.167,1.046,1.526,7.507,25.33
-0.126,-0.156,1.062,5.188,14.954,27.039
-0.125,-0.141,1.06,9.583,22.095,27.893
-0.097,-0.114,1.051,13.489,27.71,27.283
-0.061,-0.089,1.027,14.343,30.762,26.611
-0.028,-0.072,1.008,11.78,30.334,25.94
-0.004,-0.068,0.987,7.263,27.039,24.597
-0.009,-0.079,0.97,1.953,22.461,23.071
-0.026,-0.097,0.949,-2.991,18.555,21.545
-0.052,-0.103,0.941,-6.226,16.174,19.348
-0.079,-0.105,0.954,-7.568,15.442,17.456
-0.098,-0.103,0.971,-6.653,15.564,16.907
-0.104,-0.095,0.977,-3.723,15.625,17.578
-0.095,-0.081,0.983,0.122,15.259,17.395
-0.082,-0.068,0.995,2.502,14.587,16.663
-0.215,-0.309,0.843,-47.424,60.852,41.321
-0.23,-0.3,0.882,-37.659,37.231,38.147
-0.196,-0.233,0.953,-29.48,9.399,33.813
-0.143,-0.162,1.005,-26.917,-12.451,28.076
-0.063,-0.13,1.032,-28.015,-23.193,22.644
0.003,-0.142,1.031,-31.433,-22.034,19.165
0.047,-0.122,1,-33.997,-11.841,18.616
0.06,-0.09,0.949,-32.043,2.075,18.066
0.029,-0.074,0.927,-27.893,15.747,15.93
-0.018,-0.078,0.922,-23.315,21.545,15.442
-0.063,-0.084,0.934,-16.968,16.724,15.32
-0.105,-0.084,0.973,-10.437,6.226,14.526
-0.141,-0.089,1.029,-5.737,-4.517,12.878
-0.163,-0.101,1.092,-4.333,-11.902,10.315
-0.164,-0.127,1.123,-5.432,-12.085,6.409
-0.137,-0.146,1.129,-8.24,-4.578,2.563
-0.077,-0.095,1.074,-9.949,7.507,0.854
-0.019,-0.036,1.015,-7.69,19.958,1.343
0.007,-0.017,0.968,-5.676,28.32,1.038
0.036,-0.016,0.93,-5.005,28.381,0
0.024,-0.043,0.924,-5.554,18.066,1.404
-0.004,-0.066,0.93,-4.7,2.747,4.517
-0.044,-0.088,0.979,-3.967,-10.986,4.944
-0.094,-0.106,1.022,-4.028,-19.104,3.479
-0.125,-0.117,1.06,-3.967,-20.752,1.648
-0.141,-0.12,1.068,-5.31,-14.526,-0.305
0.033,-0.266,0.956,-2.93,-4.089,13.733
0.021,-0.246,0.955,-7.385,0.488,15.869
0.003,-0.214,0.939,-10.376,3.784,18.066
-0.034,-0.177,0.941,-12.817,6.47,18.005
-0.058,-0.17,0.935,-14.282,6.897,16.479
-0.069,-0.189,0.923,-15.869,3.723,15.32
-0.079,-0.213,0.906,-15.991,-1.709,15.625
-0.087,-0.229,0.9,-14.526,-5.432,15.198
-0.079,-0.255,0.906,-13.733,-5.615,12.39
-0.048,-0.275,0.921,-13.916,-3.479,10.071
-0.019,-0.262,0.917,-13.611,-1.099,10.315
0.01,-0.227,0.906,-12.451,3.601,12.207
0.022,-0.169,0.899,-10.315,9.277,15.015
0.007,-0.108,0.896,-7.385,13.733,18.738
-0.017,-0.067,0.887,-5.615,17.517,20.02
-0.052,-0.054,0.885,-5.737,18.738,18.921
-0.099,-0.063,0.889,-6.958,15.442,17.029
-0.134,-0.099,0.894,-9.094,9.46,13.489
-0.146,-0.149,0.914,-11.78,2.197,8.24
-0.139,-0.206,0.937,-13.672,-4.822,3.296
-0.101,-0.247,0.949,-15.137,-9.583,0.305
-0.038,-0.24,0.945,-14.526,-9.644,-1.099
0.032,-0.187,0.945,-11.841,-5.31,-1.526
0.085,-0.143,0.94,-9.033,0.732,-0.732
0.125,-0.103,0.929,-6.409,6.531,2.625
0.126,-0.073,0.925,-5.249,10.254,7.812
-0.071,-0.212,0.903,6.836,-15.381,2.625
-0.073,-0.218,0.909,7.996,-20.691,0.183
-0.082,-0.215,0.922,10.01,-24.658,-2.502
-0.085,-0.206,0.946,11.23,-26.611,-4.028
-0.07,-0.19,0.972,11.597,-26.917,-4.761
-0.057,-0.174,0.991,11.902,-26.611,-4.761
-0.052,-0.158,1.013,10.254,-25.513,-3.662
-0.053,-0.156,1.037,5.798,-23.01,-1.343
-0.053,-0.165,1.045,1.587,-18.616,0.427
-0.056,-0.173,1.042,-1.892,-13.184,1.404
-0.053,-0.181,1.025,-5.676,-8.179,2.136
-0.041,-0.181,0.999,-8.362,-4.333,2.38
-0.039,-0.19,0.968,-10.254,-1.892,2.38
-0.03,-0.187,0.931,-11.414,-0.488,2.869
-0.024,-0.173,0.91,-11.23,-0.061,3.357
-0.032,-0.174,0.887,-9.766,-0.244,2.686
-0.051,-0.175,0.877,-6.409,-0.854,1.77
-0.076,-0.181,0.875,-2.502,-1.587,1.404
-0.084,-0.182,0.887,0.488,-2.014,0.916
-0.082,-0.179,0.908,2.319,-2.258,1.77
-0.065,-0.161,0.907,3.723,-3.174,4.15
-0.052,-0.155,0.904,4.089,-2.869,6.042
-0.031,-0.12,0.885,3.357,-1.709,6.348
-0.013,-0.104,0.855,4.028,-0.244,5.92
-0.016,-0.114,0.846,4.517,0.977,4.7
-0.046,-0.137,0.842,5.737,0.854,3.906
-0.054,-0.169,0.983,1.16,10.437,23.621
-0.099,-0.147,0.98,1.404,19.836,24.048
-0.138,-0.15,0.966,0.122,23.499,24.475
-0.161,-0.155,0.95,-3.479,20.813,25.024
-0.17,-0.167,0.938,-9.033,14.099,24.597
-0.16,-0.185,0.931,-14.832,5.432,24.17
-0.143,-0.218,0.933,-20.142,-2.197,24.719
-0.119,-0.248,0.926,-23.621,-6.226,25.757
-0.078,-0.244,0.903,-24.048,-5.737,26.489
-0.046,-0.27,0.901,-22.278,-1.282,26.978
-0.018,-0.232,0.89,-19.165,5.066,28.687
-0.009,-0.219,0.875,-13.123,12.39,31.25
-0.025,-0.219,0.872,-7.507,19.043,33.569
-0.059,-0.204,0.864,-2.502,23.682,35.706
-0.092,-0.198,0.862,1.953,25.452,35.889
-0.117,-0.191,0.875,3.479,23.865,34.851
-0.141,-0.185,0.893,1.77,18.494,34.302
-0.152,-0.191,0.903,-0.977,11.353,32.776
-0.14,-0.188,0.911,-5.127,4.15,30.029
-0.099,-0.177,0.898,-9.46,-2.258,26.733
-0.051,-0.159,0.878,-13.977,-7.629,23.804
-0.005,-0.122,0.84,-17.944,-12.024,21.24
0.027,-0.108,0.813,-20.752,-14.954,19.897
0.029,-0.105,0.796,-22.217,-17.578,19.653
0.014,-0.107,0.782,-21.79,-18.921,19.531
-0.017,-0.117,0.792,-22.034,-20.691,18.738
0.069,-0.187,0.893,13.977,5.676,-4.211
0.085,-0.195,0.899,10.498,-8.85,-2.319
0.098,-0.202,0.927,6.531,-22.644,0.916
0.109,-0.202,0.952,2.686,-31.921,4.15
0.092,-0.235,1.009,-1.648,-35.889,6.836
0.091,-0.207,1.035,-4.822,-33.142,9.277
0.085,-0.21,1.057,-5.005,-23.804,11.292
0.079,-0.198,1.052,-4.822,-10.193,13.428
0.104,-0.168,1.017,-1.77,3.235,14.526
0.119,-0.152,0.969,2.808,14.404,13.611
0.118,-0.145,0.93,7.263,20.874,10.62
0.095,-0.14,0.91,8.362,20.752,7.935
0.068,-0.147,0.917,6.165,14.404,7.751
0.037,-0.178,0.951,1.587,2.625,9.399
-0.003,-0.213,0.991,-4.15,-11.292,12.207
-0.035,-0.233,1.004,-8.789,-22.583,13.794
-0.046,-0.263,1.022,-12.634,-26.611,13.062
-0.032,-0.249,1.028,-17.029,-23.071,11.658
0.004,-0.224,1.014,-17.761,-15.747,11.108
0.062,-0.172,0.969,-13.306,-8.789,11.047
0.128,-0.124,0.924,-8.057,-4.7,10.925
0.168,-0.097,0.908,-7.385,-4.333,11.658
0.171,-0.089,0.914,-11.78,-7.263,13.977
0.153,-0.094,0.916,-17.578,-11.963,16.724
0.115,-0.121,0.926,-22.339,-16.296,19.592
0.063,-0.145,0.949,-26.428,-18.25,22.766
-0.095,-0.195,0.953,-32.593,-6.47,0.549
-0.09,-0.217,0.919,-27.344,-4.028,-0.061
-0.081,-0.217,0.907,-18.799,-0.549,-0.61
-0.084,-0.215,0.9,-10.01,2.747,-0.427
-0.075,-0.213,0.923,-3.235,5.493,0.122
-0.06,-0.205,0.945,0.854,6.592,1.282
-0.054,-0.215,0.967,2.38,6.042,3.174
-0.044,-0.214,0.978,1.343,5.432,4.822
-0.015,-0.185,0.97,-0.488,6.653,5.127
-0.002,-0.147,0.955,-1.953,8.85,3.967
0,-0.122,0.945,-3.113,11.23,1.77
-0.002,-0.104,0.937,-4.456,13,-0.122
-0.016,-0.115,0.936,-5.981,13,-0.793
-0.031,-0.132,0.931,-6.958,9.644,-1.099
-0.037,-0.153,0.929,-6.958,3.723,-1.465
-0.038,-0.175,0.946,-6.958,-2.93,-1.343
-0.048,-0.215,0.969,-7.69,-10.071,-0.671
-0.048,-0.233,1,-8.362,-15.747,1.953
-0.047,-0.243,1.017,-8.423,-16.418,5.615
-0.049,-0.233,1.016,-7.751,-11.841,8.118
-0.024,-0.193,1.002,-4.456,-4.028,9.277
-0.009,-0.134,0.974,1.831,2.747,9.644
-0.004,-0.093,0.957,7.385,7.385,9.705
-0.012,-0.061,0.942,9.521,7.385,9.644
-0.036,-0.052,0.938,9.033,1.526,9.399
-0.06,-0.054,0.948,6.287,-7.019,8.911
-0.051,-0.187,0.935,-26.672,-10.254,10.315
-0.037,-0.189,0.899,-29.968,-18.494,12.207
-0.017,-0.197,0.875,-30.823,-26.611,15.015
0.014,-0.182,0.872,-29.907,-30.945,18.066
0.033,-0.144,0.872,-26.489,-31.616,21.24
0.043,-0.104,0.876,-20.569,-29.785,22.949
0.051,-0.088,0.889,-14.587,-26.917,22.827
0.057,-0.039,0.891,-9.705,-26.123,24.475
0.052,-0.011,0.915,-8.24,-28.687,26.245
0.02,-0.021,0.964,-10.193,-30.64,24.536
0,-0.041,1.001,-12.512,-30.09,22.278
-0.017,-0.061,1.014,-15.076,-27.893,20.996
-0.025,-0.073,1.015,-16.846,-23.804,20.996
-0.021,-0.083,1.022,-17.7,-17.334,21.973
-0.004,-0.074,1.031,-16.907,-9.766,23.621
0.019,-0.046,1.034,-14.221,-3.906,24.048
0.037,-0.025,1.029,-11.963,-1.77,23.56
0.054,-0.005,1.01,-10.01,-2.136,22.644
0.061,0.004,1.01,-9.583,-4.089,21.973
0.054,0.007,1.027,-12.329,-5.859,22.705
0.032,-0.008,1.036,-15.503,-5.92,23.926
0.006,-0.005,1.036,-17.334,-3.54,25.696
-0.024,-0.006,1.029,-18.311,2.136,26.367
-0.041,-0.019,1.026,-17.822,10.254,25.085
-0.047,-0.034,1.007,-14.404,17.273,23.56
-0.027,-0.026,0.988,-9.46,20.813,21.851
0.035,-0.101,0.968,-0.122,-45.715,15.259
0.021,-0.086,0.995,1.526,-24.048,15.686
-0.01,-0.096,0.986,1.282,-2.991,14.404
-0.035,-0.118,0.963,0.916,12.146,12.756
-0.06,-0.133,0.958,0.793,19.226,10.986
-0.082,-0.157,0.958,1.099,18.799,9.705
-0.105,-0.174,0.973,1.526,12.634,9.277
-0.129,-0.194,0.998,1.953,3.723,8.545
-0.134,-0.205,1.023,2.38,-3.784,6.47
-0.106,-0.19,1.031,1.587,-9.277,3.357
-0.062,-0.157,1.031,0.183,-12.329,1.404
-0.037,-0.142,1.04,-1.038,-12.451,1.404
-0.01,-0.127,1.036,-2.441,-9.033,2.258
0.003,-0.116,1.022,-4.272,-3.113,2.197
0.007,-0.137,1.022,-7.019,3.418,1.831
-0.009,-0.159,1.036,-9.46,8.911,2.014
-0.037,-0.187,1.046,-10.803,13.367,3.479
-0.066,-0.211,1.053,-10.742,16.846,5.615
-0.083,-0.222,1.058,-9.399,20.081,5.92
-0.086,-0.228,1.06,-8.057,24.231,4.517
-0.074,-0.229,1.033,-6.165,29.175,2.93
-0.033,-0.203,0.998,-3.296,33.02,1.892
-0.008,-0.185,0.97,0.305,33.264,0.854
0.011,-0.181,0.967,2.441,30.701,-0.305
0.015,-0.178,0.974,2.197,24.353,-0.854
0.01,-0.178,0.982,1.587,14.587,-2.502
0.052,-0.169,0.858,-12.756,33.447,9.949
0.051,-0.166,0.823,-13.428,22.095,5.798
0.043,-0.155,0.82,-14.587,8.362,1.953
0.018,-0.173,0.845,-16.357,-5.188,-0.122
0,-0.184,0.873,-15.381,-19.287,-0.244
-0.005,-0.191,0.903,-10.803,-31.25,1.587
-0.003,-0.167,0.938,-6.348,-37.354,5.676
-0.007,-0.172,0.969,-2.625,-37.72,9.949
-0.001,-0.13,0.984,1.038,-32.349,13.916
0.023,-0.103,1.003,3.967,-21.545,18.25
0.028,-0.08,1.025,4.578,-8.606,21.729
0.036,-0.046,1.018,5.554,2.014,25.024
0.043,-0.039,0.999,8.911,10.681,27.283
0.039,-0.027,0.991,9.155,16.541,28.015
0.018,-0.041,0.983,5.859,19.531,27.161
-0.001,-0.042,0.957,2.991,19.531,25.452
-0.029,-0.058,0.948,-0.122,16.785,24.292
-0.045,-0.065,0.942,-2.075,13.306,24.109
-0.065,-0.073,0.925,-0.854,9.216,23.376
-0.072,-0.076,0.923,0.122,6.775,22.888
-0.065,-0.068,0.936,0.732,6.226,22.705
-0.055,-0.052,0.939,2.747,6.958,22.4
-0.04,-0.027,0.938,6.165,8.118,22.156
-0.026,-0.02,0.957,9.155,9.521,22.644
-0.015,-0.012,0.963,10.742,11.108,23.987
-0.003,-0.009,0.957,12.634,12.512,24.963
